<?xml version="1.0" encoding="UTF-8"?>

<Bundle xmlns="http://hl7.org/fhir">
  <id value="ucgh222p13-bundle"/>
  <type value="transaction"/>
  <entry>
    <fullUrl value="http://uhmep-server/ServiceRequest/ucgh222p13"/>
    <resource>
      <ServiceRequest>
        <id value="ucgh222p13"/>
        <meta>
          <profile value="https://www.ehealth.fgov.be/standards/fhir/referral/StructureDefinition/be-referralprescription-nursing"/>
        </meta>
        <text>
          <status value="extensions"/><div xmlns="http://www.w3.org/1999/xhtml"><p><b>Generated Narrative: ServiceRequest</b><a name="ucgh222p13"> </a></p><div style="display: inline-block; background-color: #d9e0e7; padding: 6px; margin: 4px; border: 1px solid #8da1b4; border-radius: 5px; line-height: 60%"><p style="margin-bottom: 0px">Resource ServiceRequest &quot;ucgh222p13&quot; </p><p style="margin-bottom: 0px">Profile: <a href="StructureDefinition-be-referralprescription-nursing.html">BeReferralPrescriptionNursing</a></p></div><p><b>BeFeedbackToPrescriber</b>: false</p><p><b>BeValidityPeriod</b>: 2022-10-03 --&gt; 2023-04-03</p><p><b>BePerformerType</b>: nurse <span style="background: LightGoldenRodYellow; margin: 4px; border: 1px solid khaki"> (<a href="https://build.fhir.org/ig/hl7-be/core//CodeSystem-cd-hcparty.html">BeCdHcParty</a>#persnurse)</span></p><p><b>status</b>: draft</p><p><b>intent</b>: order</p><p><b>category</b>: 9632001 <span style="background: LightGoldenRodYellow; margin: 4px; border: 1px solid khaki"> (<a href="https://browser.ihtsdotools.org/">SNOMED CT[BE]</a>#9632001)</span></p><p><b>code</b>: 225358003 <span style="background: LightGoldenRodYellow; margin: 4px; border: 1px solid khaki"> (<a href="https://browser.ihtsdotools.org/">SNOMED CT[BE]</a>#225358003)</span></p><p><b>subject</b>: <span>id: 38012699993</span></p><p><b>authoredOn</b>: 2022-10-03</p><p><b>requester</b>: <a href="#PractitionerRole_ucgh222p13-1-1">See above (PractitionerRole/ucgh222p13-1-1)</a></p><p><b>reasonCode</b>: 46541008 <span style="background: LightGoldenRodYellow; margin: 4px; border: 1px solid khaki"> (<a href="https://browser.ihtsdotools.org/">SNOMED CT[BE]</a>#46541008)</span></p><p><b>bodySite</b>: 14975008 <span style="background: LightGoldenRodYellow; margin: 4px; border: 1px solid khaki"> (<a href="https://browser.ihtsdotools.org/">SNOMED CT[BE]</a>#14975008)</span></p></div>
        </text>
        <extension url="https://www.ehealth.fgov.be/standards/fhir/referral/StructureDefinition/be-ext-feedback-to-prescriber">
          <valueBoolean value="false"/>
        </extension>
        <extension url="https://www.ehealth.fgov.be/standards/fhir/referral/StructureDefinition/be-ext-validity-period">
          <valuePeriod>
            <start value="2022-10-03"/>
            <end value="2023-04-03"/>
          </valuePeriod>
        </extension>
        <extension url="https://www.ehealth.fgov.be/standards/fhir/referral/StructureDefinition/be-ext-performer-type">
          <valueCodeableConcept>
            <coding>
              <system value="https://www.ehealth.fgov.be/standards/fhir/core/CodeSystem/cd-hcparty"/>
              <code value="persnurse"/>
            </coding>
          </valueCodeableConcept>
        </extension>
        <status value="draft"/>
        <intent value="order"/>
        <category>
          <coding>
            <system value="http://snomed.info/sct"/>
            <version value="http://snomed.info/sct/11000172109"/>
            <code value="9632001"/>
          </coding>
        </category>
        <code>
          <coding>
            <system value="http://snomed.info/sct"/>
            <version value="http://snomed.info/sct/11000172109"/>
            <code value="225358003"/>
          </coding>
        </code>
        <subject>
          <identifier>
            <system value="https://www.ehealth.fgov.be/standards/fhir/core/NamingSystem/ssin"/>
            <value value="38012699993"/>
          </identifier>
        </subject>
        <authoredOn value="2022-10-03"/>
        <requester>
          <reference value="PractitionerRole/ucgh222p13-1-1"/>
        </requester>
        <reasonCode>
          <coding>
            <system value="http://snomed.info/sct"/>
            <version value="http://snomed.info/sct/11000172109"/>
            <code value="46541008"/>
          </coding>
        </reasonCode>
        <bodySite>
          <extension url="https://www.ehealth.fgov.be/standards/fhir/core-clinical/StructureDefinition/be-ext-laterality">
            <valueCoding>
              <system value="http://snomed.info/sct"/>
              <version value="http://snomed.info/sct/11000172109"/>
              <code value="419161000"/>
            </valueCoding>
          </extension>
          <coding>
            <system value="http://snomed.info/sct"/>
            <version value="http://snomed.info/sct/11000172109"/>
            <code value="14975008"/>
          </coding>
        </bodySite>
      </ServiceRequest>
    </resource>
    <request>
      <method value="PUT"/>
      <url value="http://uhmep-server/ServiceRequest/ucgh222p13"/>
    </request>
  </entry>
  <entry>
    <fullUrl value="http://uhmep-server/ServiceRequest/ucgh222p13-1"/>
    <resource>
      <ServiceRequest>
        <id value="ucgh222p13-1"/>
        <meta>
          <profile value="https://www.ehealth.fgov.be/standards/fhir/referral/StructureDefinition/BeNursingCareRequest"/>
        </meta>
        <text>
          <status value="generated"/><div xmlns="http://www.w3.org/1999/xhtml"><p><b>Generated Narrative: ServiceRequest</b><a name="ucgh222p13-1"> </a></p><div style="display: inline-block; background-color: #d9e0e7; padding: 6px; margin: 4px; border: 1px solid #8da1b4; border-radius: 5px; line-height: 60%"><p style="margin-bottom: 0px">Resource ServiceRequest &quot;ucgh222p13-1&quot; </p><p style="margin-bottom: 0px">Profile: <a href="StructureDefinition-BeNursingCareRequest.html">BeNursingCareRequest</a></p></div><p><b>basedOn</b>: <a href="#ServiceRequest_ucgh222p13">See above (ServiceRequest/ucgh222p13)</a></p><p><b>status</b>: draft</p><p><b>intent</b>: order</p><p><b>category</b>: 9632001 <span style="background: LightGoldenRodYellow; margin: 4px; border: 1px solid khaki"> (<a href="https://browser.ihtsdotools.org/">SNOMED CT[BE]</a>#9632001)</span></p><p><b>code</b>: 18629005 <span style="background: LightGoldenRodYellow; margin: 4px; border: 1px solid khaki"> (<a href="https://browser.ihtsdotools.org/">SNOMED CT[BE]</a>#18629005)</span></p><p><b>subject</b>: <span>id: 38012699993</span></p></div>
        </text>
        <basedOn>
          <reference value="ServiceRequest/ucgh222p13"/>
        </basedOn>
        <status value="draft"/>
        <intent value="order"/>
        <category>
          <coding>
            <system value="http://snomed.info/sct"/>
            <version value="http://snomed.info/sct/11000172109"/>
            <code value="9632001"/>
          </coding>
        </category>
        <code>
          <coding>
            <system value="http://snomed.info/sct"/>
            <version value="http://snomed.info/sct/11000172109"/>
            <code value="18629005"/>
          </coding>
        </code>
        <subject>
          <identifier>
            <system value="https://www.ehealth.fgov.be/standards/fhir/core/NamingSystem/ssin"/>
            <value value="38012699993"/>
          </identifier>
        </subject>
      </ServiceRequest>
    </resource>
    <request>
      <method value="PUT"/>
      <url value="http://uhmep-server/ServiceRequest/ucgh222p13-1"/>
    </request>
  </entry>
  <entry>
    <fullUrl value="http://uhmep-server/ServiceRequest/ucgh222p13-2"/>
    <resource>
      <ServiceRequest>
        <id value="ucgh222p13-2"/>
        <meta>
          <profile value="https://www.ehealth.fgov.be/standards/fhir/referral/StructureDefinition/BeNursingCareRequest"/>
        </meta>
        <text>
          <status value="generated"/><div xmlns="http://www.w3.org/1999/xhtml"><p><b>Generated Narrative: ServiceRequest</b><a name="ucgh222p13-2"> </a></p><div style="display: inline-block; background-color: #d9e0e7; padding: 6px; margin: 4px; border: 1px solid #8da1b4; border-radius: 5px; line-height: 60%"><p style="margin-bottom: 0px">Resource ServiceRequest &quot;ucgh222p13-2&quot; </p><p style="margin-bottom: 0px">Profile: <a href="StructureDefinition-BeNursingCareRequest.html">BeNursingCareRequest</a></p></div><p><b>basedOn</b>: <a href="#ServiceRequest_ucgh222p13">See above (ServiceRequest/ucgh222p13)</a></p><p><b>status</b>: draft</p><p><b>intent</b>: order</p><p><b>category</b>: 9632001 <span style="background: LightGoldenRodYellow; margin: 4px; border: 1px solid khaki"> (<a href="https://browser.ihtsdotools.org/">SNOMED CT[BE]</a>#9632001)</span></p><p><b>code</b>: 3895009 <span style="background: LightGoldenRodYellow; margin: 4px; border: 1px solid khaki"> (<a href="https://browser.ihtsdotools.org/">SNOMED CT[BE]</a>#3895009)</span></p><p><b>subject</b>: <span>id: 38012699993</span></p></div>
        </text>
        <basedOn>
          <reference value="ServiceRequest/ucgh222p13"/>
        </basedOn>
        <status value="draft"/>
        <intent value="order"/>
        <category>
          <coding>
            <system value="http://snomed.info/sct"/>
            <version value="http://snomed.info/sct/11000172109"/>
            <code value="9632001"/>
          </coding>
        </category>
        <code>
          <coding>
            <system value="http://snomed.info/sct"/>
            <version value="http://snomed.info/sct/11000172109"/>
            <code value="3895009"/>
          </coding>
        </code>
        <subject>
          <identifier>
            <system value="https://www.ehealth.fgov.be/standards/fhir/core/NamingSystem/ssin"/>
            <value value="38012699993"/>
          </identifier>
        </subject>
      </ServiceRequest>
    </resource>
    <request>
      <method value="PUT"/>
      <url value="http://uhmep-server/ServiceRequest/ucgh222p13-2"/>
    </request>
  </entry>
  <entry>
    <fullUrl value="http://uhmep-server/PractitionerRole/ucgh222p13-1-1"/>
    <resource>
      <PractitionerRole>
        <id value="ucgh222p13-1-1"/>
        <meta>
          <profile value="https://www.ehealth.fgov.be/standards/fhir/core/StructureDefinition/be-practitionerrole"/>
        </meta>
        <text>
          <status value="generated"/><div xmlns="http://www.w3.org/1999/xhtml"><p><b>Generated Narrative: PractitionerRole</b><a name="ucgh222p13-1-1"> </a></p><div style="display: inline-block; background-color: #d9e0e7; padding: 6px; margin: 4px; border: 1px solid #8da1b4; border-radius: 5px; line-height: 60%"><p style="margin-bottom: 0px">Resource PractitionerRole &quot;ucgh222p13-1-1&quot; </p><p style="margin-bottom: 0px">Profile: <a href="https://build.fhir.org/ig/hl7-be/core//StructureDefinition-be-practitionerrole.html">BePractitionerRole</a></p></div><p><b>practitioner</b>: <span>id: 10829059</span></p><p><b>code</b>: physician <span style="background: LightGoldenRodYellow; margin: 4px; border: 1px solid khaki"> (<a href="https://build.fhir.org/ig/hl7-be/core//CodeSystem-cd-hcparty.html">BeCdHcParty</a>#persphysician)</span></p></div>
        </text>
        <practitioner>
          <identifier>
            <system value="https://www.ehealth.fgov.be/standards/fhir/core/NamingSystem/nihdi"/>
            <value value="10829059"/>
          </identifier>
        </practitioner>
        <code>
          <coding>
            <system value="https://www.ehealth.fgov.be/standards/fhir/core/CodeSystem/cd-hcparty"/>
            <code value="persphysician"/>
          </coding>
        </code>
      </PractitionerRole>
    </resource>
    <request>
      <method value="PUT"/>
      <url value="http://uhmep-server/ServiceRequest/ucgh222p13-1-1"/>
    </request>
  </entry>
  <entry>
    <fullUrl value="http://uhmep-server/MedicationRequest/ucgh222p13-1-2"/>
    <resource>
      <MedicationRequest>
        <id value="ucgh222p13-1-2"/>
        <text>
          <status value="generated"/><div xmlns="http://www.w3.org/1999/xhtml"><p><b>Generated Narrative: MedicationRequest</b><a name="ucgh222p13-1-2"> </a></p><div style="display: inline-block; background-color: #d9e0e7; padding: 6px; margin: 4px; border: 1px solid #8da1b4; border-radius: 5px; line-height: 60%"><p style="margin-bottom: 0px">Resource MedicationRequest &quot;ucgh222p13-1-2&quot; </p></div><p><b>status</b>: draft</p><p><b>intent</b>: plan</p><p><b>medication</b>: 093746-01 <span style="background: LightGoldenRodYellow; margin: 4px; border: 1px solid khaki"> (cti-extended-code#093746-01)</span></p><p><b>subject</b>: <span>id: 38012699993</span></p><p><b>basedOn</b>: <a href="#ServiceRequest_ucgh222p13-1">See above (ServiceRequest/ucgh222p13-1)</a></p><p><b>note</b>: Flamazine</p></div>
        </text>
        <status value="draft"/>
        <intent value="plan"/>
        <medicationCodeableConcept>
          <coding>
            <system value="https://www.ehealth.fgov.be/standards/fhir/medication/NamingSystem/cti-extended-code"/>
            <code value="093746-01"/>
          </coding>
        </medicationCodeableConcept>
        <subject>
          <identifier>
            <system value="https://www.ehealth.fgov.be/standards/fhir/core/NamingSystem/ssin"/>
            <value value="38012699993"/>
          </identifier>
        </subject>
        <basedOn>
          <reference value="ServiceRequest/ucgh222p13-1"/>
        </basedOn>
        <note>
          <text value="Flamazine"/>
        </note>
      </MedicationRequest>
    </resource>
    <request>
      <method value="PUT"/>
      <url value="http://uhmep-server/ServiceRequest/ucgh222p13-1-2"/>
    </request>
  </entry>
  <entry>
    <fullUrl value="http://uhmep-server/DeviceRequest/ucgh222p13-2-1"/>
    <resource>
      <DeviceRequest>
        <id value="ucgh222p13-2-1"/>
        <text>
          <status value="generated"/><div xmlns="http://www.w3.org/1999/xhtml"><p><b>Generated Narrative: DeviceRequest</b><a name="ucgh222p13-2-1"> </a></p><div style="display: inline-block; background-color: #d9e0e7; padding: 6px; margin: 4px; border: 1px solid #8da1b4; border-radius: 5px; line-height: 60%"><p style="margin-bottom: 0px">Resource DeviceRequest &quot;ucgh222p13-2-1&quot; </p></div><p><b>basedOn</b>: <a href="#ServiceRequest_ucgh222p13-2">See above (ServiceRequest/ucgh222p13-2)</a></p><p><b>intent</b>: plan</p><p><b>code</b>: 0191353 <span style="background: LightGoldenRodYellow; margin: 4px; border: 1px solid khaki"> (cnk-codes#0191353)</span></p><p><b>subject</b>: <span>id: 38012699993</span></p><p><b>note</b>: Melolin 10x10cm</p></div>
        </text>
        <basedOn>
          <reference value="ServiceRequest/ucgh222p13-2"/>
        </basedOn>
        <intent value="plan"/>
        <codeCodeableConcept>
          <coding>
            <system value="https://www.ehealth.fgov.be/standards/fhir/medication/NamingSystem/cnk-codes"/>
            <code value="0191353"/>
          </coding>
        </codeCodeableConcept>
        <subject>
          <identifier>
            <system value="https://www.ehealth.fgov.be/standards/fhir/core/NamingSystem/ssin"/>
            <value value="38012699993"/>
          </identifier>
        </subject>
        <note>
          <text value="Melolin 10x10cm"/>
        </note>
      </DeviceRequest>
    </resource>
    <request>
      <method value="PUT"/>
      <url value="http://uhmep-server/ServiceRequest/ucgh222p13-2-1"/>
    </request>
  </entry>
</Bundle>