{
  "resourceType" : "Bundle",
  "id" : "ucgh222p13-bundle",
  "type" : "transaction",
  "entry" : [{
    "fullUrl" : "http://uhmep-server/ServiceRequest/ucgh222p13",
    "resource" : {
      "resourceType" : "ServiceRequest",
      "id" : "ucgh222p13",
      "meta" : {
        "profile" : ["https://www.ehealth.fgov.be/standards/fhir/referral/StructureDefinition/be-referralprescription-nursing"]
      },
      "text" : {
        "status" : "extensions",
        "div" : "<div xmlns=\"http://www.w3.org/1999/xhtml\"><p><b>Generated Narrative: ServiceRequest</b><a name=\"ucgh222p13\"> </a></p><div style=\"display: inline-block; background-color: #d9e0e7; padding: 6px; margin: 4px; border: 1px solid #8da1b4; border-radius: 5px; line-height: 60%\"><p style=\"margin-bottom: 0px\">Resource ServiceRequest &quot;ucgh222p13&quot; </p><p style=\"margin-bottom: 0px\">Profile: <a href=\"StructureDefinition-be-referralprescription-nursing.html\">BeReferralPrescriptionNursing</a></p></div><p><b>BeFeedbackToPrescriber</b>: false</p><p><b>BeValidityPeriod</b>: 2022-10-03 --&gt; 2023-04-03</p><p><b>BePerformerType</b>: nurse <span style=\"background: LightGoldenRodYellow; margin: 4px; border: 1px solid khaki\"> (<a href=\"https://build.fhir.org/ig/hl7-be/core//CodeSystem-cd-hcparty.html\">BeCdHcParty</a>#persnurse)</span></p><p><b>status</b>: draft</p><p><b>intent</b>: order</p><p><b>category</b>: 9632001 <span style=\"background: LightGoldenRodYellow; margin: 4px; border: 1px solid khaki\"> (<a href=\"https://browser.ihtsdotools.org/\">SNOMED CT[BE]</a>#9632001)</span></p><p><b>code</b>: 225358003 <span style=\"background: LightGoldenRodYellow; margin: 4px; border: 1px solid khaki\"> (<a href=\"https://browser.ihtsdotools.org/\">SNOMED CT[BE]</a>#225358003)</span></p><p><b>subject</b>: <span>id:\u00a038012699993</span></p><p><b>authoredOn</b>: 2022-10-03</p><p><b>requester</b>: <a href=\"#PractitionerRole_ucgh222p13-1-1\">See above (PractitionerRole/ucgh222p13-1-1)</a></p><p><b>reasonCode</b>: 46541008 <span style=\"background: LightGoldenRodYellow; margin: 4px; border: 1px solid khaki\"> (<a href=\"https://browser.ihtsdotools.org/\">SNOMED CT[BE]</a>#46541008)</span></p><p><b>bodySite</b>: 14975008 <span style=\"background: LightGoldenRodYellow; margin: 4px; border: 1px solid khaki\"> (<a href=\"https://browser.ihtsdotools.org/\">SNOMED CT[BE]</a>#14975008)</span></p></div>"
      },
      "extension" : [{
        "url" : "https://www.ehealth.fgov.be/standards/fhir/referral/StructureDefinition/be-ext-feedback-to-prescriber",
        "valueBoolean" : false
      },
      {
        "url" : "https://www.ehealth.fgov.be/standards/fhir/referral/StructureDefinition/be-ext-validity-period",
        "valuePeriod" : {
          "start" : "2022-10-03",
          "end" : "2023-04-03"
        }
      },
      {
        "url" : "https://www.ehealth.fgov.be/standards/fhir/referral/StructureDefinition/be-ext-performer-type",
        "valueCodeableConcept" : {
          "coding" : [{
            "system" : "https://www.ehealth.fgov.be/standards/fhir/core/CodeSystem/cd-hcparty",
            "code" : "persnurse"
          }]
        }
      }],
      "status" : "draft",
      "intent" : "order",
      "category" : [{
        "coding" : [{
          "system" : "http://snomed.info/sct",
          "version" : "http://snomed.info/sct/11000172109",
          "code" : "9632001"
        }]
      }],
      "code" : {
        "coding" : [{
          "system" : "http://snomed.info/sct",
          "version" : "http://snomed.info/sct/11000172109",
          "code" : "225358003"
        }]
      },
      "subject" : {
        "identifier" : {
          "system" : "https://www.ehealth.fgov.be/standards/fhir/core/NamingSystem/ssin",
          "value" : "38012699993"
        }
      },
      "authoredOn" : "2022-10-03",
      "requester" : {
        "reference" : "PractitionerRole/ucgh222p13-1-1"
      },
      "reasonCode" : [{
        "coding" : [{
          "system" : "http://snomed.info/sct",
          "version" : "http://snomed.info/sct/11000172109",
          "code" : "46541008"
        }]
      }],
      "bodySite" : [{
        "extension" : [{
          "url" : "https://www.ehealth.fgov.be/standards/fhir/core-clinical/StructureDefinition/be-ext-laterality",
          "valueCoding" : {
            "system" : "http://snomed.info/sct",
            "version" : "http://snomed.info/sct/11000172109",
            "code" : "419161000"
          }
        }],
        "coding" : [{
          "system" : "http://snomed.info/sct",
          "version" : "http://snomed.info/sct/11000172109",
          "code" : "14975008"
        }]
      }]
    },
    "request" : {
      "method" : "PUT",
      "url" : "http://uhmep-server/ServiceRequest/ucgh222p13"
    }
  },
  {
    "fullUrl" : "http://uhmep-server/ServiceRequest/ucgh222p13-1",
    "resource" : {
      "resourceType" : "ServiceRequest",
      "id" : "ucgh222p13-1",
      "meta" : {
        "profile" : ["https://www.ehealth.fgov.be/standards/fhir/referral/StructureDefinition/BeNursingCareRequest"]
      },
      "text" : {
        "status" : "generated",
        "div" : "<div xmlns=\"http://www.w3.org/1999/xhtml\"><p><b>Generated Narrative: ServiceRequest</b><a name=\"ucgh222p13-1\"> </a></p><div style=\"display: inline-block; background-color: #d9e0e7; padding: 6px; margin: 4px; border: 1px solid #8da1b4; border-radius: 5px; line-height: 60%\"><p style=\"margin-bottom: 0px\">Resource ServiceRequest &quot;ucgh222p13-1&quot; </p><p style=\"margin-bottom: 0px\">Profile: <a href=\"StructureDefinition-BeNursingCareRequest.html\">BeNursingCareRequest</a></p></div><p><b>basedOn</b>: <a href=\"#ServiceRequest_ucgh222p13\">See above (ServiceRequest/ucgh222p13)</a></p><p><b>status</b>: draft</p><p><b>intent</b>: order</p><p><b>category</b>: 9632001 <span style=\"background: LightGoldenRodYellow; margin: 4px; border: 1px solid khaki\"> (<a href=\"https://browser.ihtsdotools.org/\">SNOMED CT[BE]</a>#9632001)</span></p><p><b>code</b>: 18629005 <span style=\"background: LightGoldenRodYellow; margin: 4px; border: 1px solid khaki\"> (<a href=\"https://browser.ihtsdotools.org/\">SNOMED CT[BE]</a>#18629005)</span></p><p><b>subject</b>: <span>id:\u00a038012699993</span></p></div>"
      },
      "basedOn" : [{
        "reference" : "ServiceRequest/ucgh222p13"
      }],
      "status" : "draft",
      "intent" : "order",
      "category" : [{
        "coding" : [{
          "system" : "http://snomed.info/sct",
          "version" : "http://snomed.info/sct/11000172109",
          "code" : "9632001"
        }]
      }],
      "code" : {
        "coding" : [{
          "system" : "http://snomed.info/sct",
          "version" : "http://snomed.info/sct/11000172109",
          "code" : "18629005"
        }]
      },
      "subject" : {
        "identifier" : {
          "system" : "https://www.ehealth.fgov.be/standards/fhir/core/NamingSystem/ssin",
          "value" : "38012699993"
        }
      }
    },
    "request" : {
      "method" : "PUT",
      "url" : "http://uhmep-server/ServiceRequest/ucgh222p13-1"
    }
  },
  {
    "fullUrl" : "http://uhmep-server/ServiceRequest/ucgh222p13-2",
    "resource" : {
      "resourceType" : "ServiceRequest",
      "id" : "ucgh222p13-2",
      "meta" : {
        "profile" : ["https://www.ehealth.fgov.be/standards/fhir/referral/StructureDefinition/BeNursingCareRequest"]
      },
      "text" : {
        "status" : "generated",
        "div" : "<div xmlns=\"http://www.w3.org/1999/xhtml\"><p><b>Generated Narrative: ServiceRequest</b><a name=\"ucgh222p13-2\"> </a></p><div style=\"display: inline-block; background-color: #d9e0e7; padding: 6px; margin: 4px; border: 1px solid #8da1b4; border-radius: 5px; line-height: 60%\"><p style=\"margin-bottom: 0px\">Resource ServiceRequest &quot;ucgh222p13-2&quot; </p><p style=\"margin-bottom: 0px\">Profile: <a href=\"StructureDefinition-BeNursingCareRequest.html\">BeNursingCareRequest</a></p></div><p><b>basedOn</b>: <a href=\"#ServiceRequest_ucgh222p13\">See above (ServiceRequest/ucgh222p13)</a></p><p><b>status</b>: draft</p><p><b>intent</b>: order</p><p><b>category</b>: 9632001 <span style=\"background: LightGoldenRodYellow; margin: 4px; border: 1px solid khaki\"> (<a href=\"https://browser.ihtsdotools.org/\">SNOMED CT[BE]</a>#9632001)</span></p><p><b>code</b>: 3895009 <span style=\"background: LightGoldenRodYellow; margin: 4px; border: 1px solid khaki\"> (<a href=\"https://browser.ihtsdotools.org/\">SNOMED CT[BE]</a>#3895009)</span></p><p><b>subject</b>: <span>id:\u00a038012699993</span></p></div>"
      },
      "basedOn" : [{
        "reference" : "ServiceRequest/ucgh222p13"
      }],
      "status" : "draft",
      "intent" : "order",
      "category" : [{
        "coding" : [{
          "system" : "http://snomed.info/sct",
          "version" : "http://snomed.info/sct/11000172109",
          "code" : "9632001"
        }]
      }],
      "code" : {
        "coding" : [{
          "system" : "http://snomed.info/sct",
          "version" : "http://snomed.info/sct/11000172109",
          "code" : "3895009"
        }]
      },
      "subject" : {
        "identifier" : {
          "system" : "https://www.ehealth.fgov.be/standards/fhir/core/NamingSystem/ssin",
          "value" : "38012699993"
        }
      }
    },
    "request" : {
      "method" : "PUT",
      "url" : "http://uhmep-server/ServiceRequest/ucgh222p13-2"
    }
  },
  {
    "fullUrl" : "http://uhmep-server/PractitionerRole/ucgh222p13-1-1",
    "resource" : {
      "resourceType" : "PractitionerRole",
      "id" : "ucgh222p13-1-1",
      "meta" : {
        "profile" : ["https://www.ehealth.fgov.be/standards/fhir/core/StructureDefinition/be-practitionerrole"]
      },
      "text" : {
        "status" : "generated",
        "div" : "<div xmlns=\"http://www.w3.org/1999/xhtml\"><p><b>Generated Narrative: PractitionerRole</b><a name=\"ucgh222p13-1-1\"> </a></p><div style=\"display: inline-block; background-color: #d9e0e7; padding: 6px; margin: 4px; border: 1px solid #8da1b4; border-radius: 5px; line-height: 60%\"><p style=\"margin-bottom: 0px\">Resource PractitionerRole &quot;ucgh222p13-1-1&quot; </p><p style=\"margin-bottom: 0px\">Profile: <a href=\"https://build.fhir.org/ig/hl7-be/core//StructureDefinition-be-practitionerrole.html\">BePractitionerRole</a></p></div><p><b>practitioner</b>: <span>id:\u00a010829059</span></p><p><b>code</b>: physician <span style=\"background: LightGoldenRodYellow; margin: 4px; border: 1px solid khaki\"> (<a href=\"https://build.fhir.org/ig/hl7-be/core//CodeSystem-cd-hcparty.html\">BeCdHcParty</a>#persphysician)</span></p></div>"
      },
      "practitioner" : {
        "identifier" : {
          "system" : "https://www.ehealth.fgov.be/standards/fhir/core/NamingSystem/nihdi",
          "value" : "10829059"
        }
      },
      "code" : [{
        "coding" : [{
          "system" : "https://www.ehealth.fgov.be/standards/fhir/core/CodeSystem/cd-hcparty",
          "code" : "persphysician"
        }]
      }]
    },
    "request" : {
      "method" : "PUT",
      "url" : "http://uhmep-server/ServiceRequest/ucgh222p13-1-1"
    }
  },
  {
    "fullUrl" : "http://uhmep-server/MedicationRequest/ucgh222p13-1-2",
    "resource" : {
      "resourceType" : "MedicationRequest",
      "id" : "ucgh222p13-1-2",
      "text" : {
        "status" : "generated",
        "div" : "<div xmlns=\"http://www.w3.org/1999/xhtml\"><p><b>Generated Narrative: MedicationRequest</b><a name=\"ucgh222p13-1-2\"> </a></p><div style=\"display: inline-block; background-color: #d9e0e7; padding: 6px; margin: 4px; border: 1px solid #8da1b4; border-radius: 5px; line-height: 60%\"><p style=\"margin-bottom: 0px\">Resource MedicationRequest &quot;ucgh222p13-1-2&quot; </p></div><p><b>status</b>: draft</p><p><b>intent</b>: plan</p><p><b>medication</b>: 093746-01 <span style=\"background: LightGoldenRodYellow; margin: 4px; border: 1px solid khaki\"> (cti-extended-code#093746-01)</span></p><p><b>subject</b>: <span>id:\u00a038012699993</span></p><p><b>basedOn</b>: <a href=\"#ServiceRequest_ucgh222p13-1\">See above (ServiceRequest/ucgh222p13-1)</a></p><p><b>note</b>: Flamazine</p></div>"
      },
      "status" : "draft",
      "intent" : "plan",
      "medicationCodeableConcept" : {
        "coding" : [{
          "system" : "https://www.ehealth.fgov.be/standards/fhir/medication/NamingSystem/cti-extended-code",
          "code" : "093746-01"
        }]
      },
      "subject" : {
        "identifier" : {
          "system" : "https://www.ehealth.fgov.be/standards/fhir/core/NamingSystem/ssin",
          "value" : "38012699993"
        }
      },
      "basedOn" : [{
        "reference" : "ServiceRequest/ucgh222p13-1"
      }],
      "note" : [{
        "text" : "Flamazine"
      }]
    },
    "request" : {
      "method" : "PUT",
      "url" : "http://uhmep-server/ServiceRequest/ucgh222p13-1-2"
    }
  },
  {
    "fullUrl" : "http://uhmep-server/DeviceRequest/ucgh222p13-2-1",
    "resource" : {
      "resourceType" : "DeviceRequest",
      "id" : "ucgh222p13-2-1",
      "text" : {
        "status" : "generated",
        "div" : "<div xmlns=\"http://www.w3.org/1999/xhtml\"><p><b>Generated Narrative: DeviceRequest</b><a name=\"ucgh222p13-2-1\"> </a></p><div style=\"display: inline-block; background-color: #d9e0e7; padding: 6px; margin: 4px; border: 1px solid #8da1b4; border-radius: 5px; line-height: 60%\"><p style=\"margin-bottom: 0px\">Resource DeviceRequest &quot;ucgh222p13-2-1&quot; </p></div><p><b>basedOn</b>: <a href=\"#ServiceRequest_ucgh222p13-2\">See above (ServiceRequest/ucgh222p13-2)</a></p><p><b>intent</b>: plan</p><p><b>code</b>: 0191353 <span style=\"background: LightGoldenRodYellow; margin: 4px; border: 1px solid khaki\"> (cnk-codes#0191353)</span></p><p><b>subject</b>: <span>id:\u00a038012699993</span></p><p><b>note</b>: Melolin 10x10cm</p></div>"
      },
      "basedOn" : [{
        "reference" : "ServiceRequest/ucgh222p13-2"
      }],
      "intent" : "plan",
      "codeCodeableConcept" : {
        "coding" : [{
          "system" : "https://www.ehealth.fgov.be/standards/fhir/medication/NamingSystem/cnk-codes",
          "code" : "0191353"
        }]
      },
      "subject" : {
        "identifier" : {
          "system" : "https://www.ehealth.fgov.be/standards/fhir/core/NamingSystem/ssin",
          "value" : "38012699993"
        }
      },
      "note" : [{
        "text" : "Melolin 10x10cm"
      }]
    },
    "request" : {
      "method" : "PUT",
      "url" : "http://uhmep-server/ServiceRequest/ucgh222p13-2-1"
    }
  }]
}