{
  "resourceType" : "RequestGroup",
  "id" : "ucgh222p13",
  "meta" : {
    "profile" : ["https://www.ehealth.fgov.be/standards/fhir/referral/StructureDefinition/be-referralprescription-request-group"]
  },
  "text" : {
    "status" : "generated",
    "div" : "<div xmlns=\"http://www.w3.org/1999/xhtml\"><p><b>Generated Narrative: RequestGroup</b><a name=\"ucgh222p13\"> </a><a name=\"hcucgh222p13\"> </a></p><div style=\"display: inline-block; background-color: #d9e0e7; padding: 6px; margin: 4px; border: 1px solid #8da1b4; border-radius: 5px; line-height: 60%\"><p style=\"margin-bottom: 0px\">Resource RequestGroup &quot;ucgh222p13&quot; </p><p style=\"margin-bottom: 0px\">Profile: <a href=\"StructureDefinition-be-referralprescription-request-group.html\">BeReferralPrescriptionRequestGroup</a></p></div><p><b>status</b>: draft</p><p><b>intent</b>: order</p><blockquote><p><b>action</b></p><blockquote><p><b>id</b></p>ucgh222p13-1</blockquote><h3>RelatedActions</h3><table class=\"grid\"><tr><td style=\"display: none\">-</td><td><b>ActionId</b></td><td><b>Relationship</b></td></tr><tr><td style=\"display: none\">*</td><td>ucgh222p13-1</td><td>after</td></tr></table><p><b>resource</b>: <a href=\"ServiceRequest-ucgh222p13-1.html\">ServiceRequest/ucgh222p13-1</a></p></blockquote><blockquote><p><b>action</b></p><blockquote><p><b>id</b></p>ucgh222p13-2</blockquote><p><b>resource</b>: <a href=\"ServiceRequest-ucgh222p13-2.html\">ServiceRequest/ucgh222p13-2</a></p></blockquote></div>"
  },
  "status" : "draft",
  "intent" : "order",
  "action" : [{
    "id" : "ucgh222p13-1",
    "relatedAction" : [{
      "actionId" : "ucgh222p13-1",
      "relationship" : "after"
    }],
    "resource" : {
      "reference" : "ServiceRequest/ucgh222p13-1"
    }
  },
  {
    "id" : "ucgh222p13-2",
    "resource" : {
      "reference" : "ServiceRequest/ucgh222p13-2"
    }
  }]
}