<?xml version="1.0" encoding="UTF-8"?>

<RequestGroup xmlns="http://hl7.org/fhir">
  <id value="example01-referralprescription-request-group"/>
  <meta>
    <profile value="https://www.ehealth.fgov.be/standards/fhir/referral/StructureDefinition/be-referralprescription-request-group"/>
  </meta>
  <text>
    <status value="generated"/><div xmlns="http://www.w3.org/1999/xhtml"><p><b>Generated Narrative: RequestGroup</b><a name="example01-referralprescription-request-group"> </a></p><div style="display: inline-block; background-color: #d9e0e7; padding: 6px; margin: 4px; border: 1px solid #8da1b4; border-radius: 5px; line-height: 60%"><p style="margin-bottom: 0px">Resource RequestGroup "example01-referralprescription-request-group" </p><p style="margin-bottom: 0px">Profile: <a href="StructureDefinition-be-referralprescription-request-group.html">BeReferralPrescriptionRequestGroup</a></p></div><p><b>identifier</b>: id: UHMEPVALUE</p><p><b>status</b>: active</p><p><b>intent</b>: order</p><p><b>subject</b>: <a name="patient1"> </a></p><blockquote><p></p><p><a name="patient1"> </a></p><p><b>identifier</b>: id: 9999999999 (OFFICIAL)</p><p><b>name</b>: Jane Doe </p><p><b>gender</b>: female</p><p><b>birthDate</b>: 1956-05-27</p></blockquote><blockquote><p><b>action</b></p><h3>RelatedActions</h3><table class="grid"><tr><td>-</td><td><b>ActionId</b></td><td><b>Relationship</b></td></tr><tr><td>*</td><td>care03</td><td>after-end</td></tr></table><p><b>resource</b>: <a name="example01-care01-referralprescription-nursing-bladder-care"> </a></p><blockquote><p></p><p><a name="example01-care01-referralprescription-nursing-bladder-care"> </a></p><p><b>Reason for current status</b>: Other <span style="background: LightGoldenRodYellow; margin: 4px; border: 1px solid khaki"> (<a href="CodeSystem-be-status-reason.html">BeStatusReason</a>#other)</span></p><p><b>BeValidityPeriod</b>: 2020-01-01 --&gt; 2021-01-01</p><blockquote><p><b>BeIntendedPerformer</b></p><p><b>value</b>: Nurse <span style="background: LightGoldenRodYellow; margin: 4px; border: 1px solid khaki"> (<a href="https://browser.ihtsdotools.org/">SNOMED CT</a>#106292003)</span></p><p><b>value</b>: <a href="#Performer1">#Performer1</a></p></blockquote><p><b>status</b>: active</p><p><b>intent</b>: order</p><p><b>category</b>: Nursing procedure <span style="background: LightGoldenRodYellow; margin: 4px; border: 1px solid khaki"> (<a href="https://browser.ihtsdotools.org/">SNOMED CT</a>#9632001)</span></p><p><b>priority</b>: routine</p><p><b>code</b>: Bladder care <span style="background: LightGoldenRodYellow; margin: 4px; border: 1px solid khaki"> (<a href="CodeSystem-be-cs-nursing-code.html">BeNursingCode</a>#bladder-care)</span></p><p><b>orderDetail</b>: Bladder probe in/out <span style="background: LightGoldenRodYellow; margin: 4px; border: 1px solid khaki"> (<a href="CodeSystem-be-cs-type-of-bladder-care.html">BeBladderCareType</a>#bladder-probe-in-out)</span></p><p><b>subject</b>: <a href="#patient1">#patient1</a></p><p><b>occurrence</b>: Do Once per 1 days</p><p><b>authoredOn</b>: 2020-01-01</p><p><b>requester</b>: <a href="#Requester1">#Requester1</a></p><p><b>reasonCode</b>: reason <span style="background: LightGoldenRodYellow; margin: 4px; border: 1px solid khaki"> ()</span></p></blockquote></blockquote><blockquote><p><b>action</b></p><h3>RelatedActions</h3><table class="grid"><tr><td>-</td><td><b>ActionId</b></td><td><b>Relationship</b></td></tr><tr><td>*</td><td>care03</td><td>after-end</td></tr></table><p><b>resource</b>: <a name="example01-care02-colon-cleansing"> </a></p><blockquote><p></p><p><a name="example01-care02-colon-cleansing"> </a></p><p><b>Reason for current status</b>: Other <span style="background: LightGoldenRodYellow; margin: 4px; border: 1px solid khaki"> (<a href="CodeSystem-be-status-reason.html">BeStatusReason</a>#other)</span></p><p><b>BeValidityPeriod</b>: 2020-01-01 --&gt; 2021-01-01</p><blockquote><p><b>BeIntendedPerformer</b></p><p><b>value</b>: Nurse <span style="background: LightGoldenRodYellow; margin: 4px; border: 1px solid khaki"> (<a href="https://browser.ihtsdotools.org/">SNOMED CT</a>#106292003)</span></p><p><b>value</b>: <a href="#Performer1">#Performer1</a></p></blockquote><p><b>status</b>: active</p><p><b>intent</b>: order</p><p><b>category</b>: Nursing procedure <span style="background: LightGoldenRodYellow; margin: 4px; border: 1px solid khaki"> (<a href="https://browser.ihtsdotools.org/">SNOMED CT</a>#9632001)</span></p><p><b>priority</b>: routine</p><p><b>code</b>: Digestive system care <span style="background: LightGoldenRodYellow; margin: 4px; border: 1px solid khaki"> (<a href="CodeSystem-be-cs-nursing-code.html">BeNursingCode</a>#digestive-system-care)</span></p><p><b>orderDetail</b>: colonic-cleansing <span style="background: LightGoldenRodYellow; margin: 4px; border: 1px solid khaki"> (<a href="CodeSystem-be-cs-digestive-system-care.html">BeDigestiveSystemCare</a>#colonic-cleansing)</span></p><p><b>subject</b>: <a href="#patient1">#patient1</a></p><p><b>occurrence</b>: Do Once per 1 days</p><p><b>authoredOn</b>: 2020-01-01</p><p><b>requester</b>: <a href="#Requester1">#Requester1</a></p><p><b>reasonCode</b>: reason <span style="background: LightGoldenRodYellow; margin: 4px; border: 1px solid khaki"> ()</span></p></blockquote></blockquote><blockquote><p><b>action</b></p><p><b>resource</b>: <a name="example01-care03-referralprescription-nursing-medication"> </a></p><blockquote><p></p><p><a name="example01-care03-referralprescription-nursing-medication"> </a></p><blockquote><p><b>BeIntendedPerformer</b></p><p><b>value</b>: Nurse <span style="background: LightGoldenRodYellow; margin: 4px; border: 1px solid khaki"> (<a href="https://browser.ihtsdotools.org/">SNOMED CT</a>#106292003)</span></p><p><b>value</b>: <a href="#Performer1">#Performer1</a></p></blockquote><p><b>status</b>: active</p><p><b>statusReason</b>: Other <span style="background: LightGoldenRodYellow; margin: 4px; border: 1px solid khaki"> (<a href="CodeSystem-be-status-reason.html">BeStatusReason</a>#other)</span></p><p><b>intent</b>: order</p><p><b>category</b>: Subcutaan <span style="background: LightGoldenRodYellow; margin: 4px; border: 1px solid khaki"> (<a href="CodeSystem-be-nursing-medication-injection.html">BeNursingMedicationInjection</a>#SC)</span></p><p><b>priority</b>: routine</p><p><b>medication</b>: Midazolam Mylan inj./inf./instill. oploss. i.m./i.v./rect. [amp.] 10 x 5 mg / 5 ml <span style="background: LightGoldenRodYellow; margin: 4px; border: 1px solid khaki"> (be-ns-cnk-codes#2661098)</span></p><p><b>subject</b>: <a href="#patient1">#patient1</a></p><p><b>requester</b>: <a href="#Requester1">#Requester1</a></p><h3>DosageInstructions</h3><table class="grid"><tr><td>-</td><td><b>Text</b></td><td><b>Timing</b></td></tr><tr><td>*</td><td>opzet hier: éénmalige sondage en lavement uitvoeren, maar persoon op voorhand verdoven met 5mg Midzaolan via subcutane inspuiting</td><td>Do Once per 1 days</td></tr></table></blockquote></blockquote></div>
  </text>
  <contained>
    <Patient>
      <id value="patient1"/>
      <meta>
        <profile value="https://www.ehealth.fgov.be/standards/fhir/core/StructureDefinition/be-patient"/>
      </meta>
      <identifier>
        <use value="official"/>
        <system value="https://www.ehealth.fgov.be/standards/fhir/core/NamingSystem/ssin"/>
        <value value="9999999999"/>
      </identifier>
      <name>
        <family value="Doe"/>
        <given value="Jane"/>
      </name>
      <gender value="female"/>
      <birthDate value="1956-05-27"/>
    </Patient>
  </contained>
  <contained>
    <Practitioner>
      <id value="Requester1"/>
      <meta>
        <profile value="https://www.ehealth.fgov.be/standards/fhir/core/StructureDefinition/be-practitioner"/>
      </meta>
      <identifier>
        <use value="official"/>
        <system value="https://www.ehealth.fgov.be/standards/fhir/core/NamingSystem/nihdi"/>
        <value value="8888888888"/>
      </identifier>
      <name>
        <use value="official"/>
        <family value="McCoy"/>
        <given value="Leonard"/>
      </name>
      <name>
        <use value="nickname"/>
        <given value="Bones"/>
      </name>
    </Practitioner>
  </contained>
  <contained>
    <Practitioner>
      <id value="Performer1"/>
      <meta>
        <profile value="https://www.ehealth.fgov.be/standards/fhir/core/StructureDefinition/be-practitioner"/>
      </meta>
      <identifier>
        <use value="official"/>
        <system value="https://www.ehealth.fgov.be/standards/fhir/core/NamingSystem/nihdi"/>
        <value value="9876543210"/>
      </identifier>
      <name>
        <use value="official"/>
        <family value="Lisa"/>
        <given value="Hermans"/>
      </name>
    </Practitioner>
  </contained>
  <contained>
    <ServiceRequest>
      <id value="example01-care01-referralprescription-nursing-bladder-care"/>
      <meta>
        <profile value="https://www.ehealth.fgov.be/standards/fhir/referral/StructureDefinition/be-referralprescription-nursing"/>
        <profile value="https://www.ehealth.fgov.be/standards/fhir/referral/StructureDefinition/be-referralprescription-nursing-bladder-care"/>
      </meta>
      <extension url="http://hl7.org/fhir/StructureDefinition/request-statusReason">
        <valueCodeableConcept>
          <coding>
            <system value="https://www.ehealth.fgov.be/standards/fhir/referral/CodeSystem/be-status-reason"/>
            <code value="other"/>
            <display value="Other"/>
          </coding>
        </valueCodeableConcept>
      </extension>
      <extension url="https://www.ehealth.fgov.be/standards/fhir/referral/StructureDefinition/be-ext-validity-period">
        <valuePeriod>
          <start value="2020-01-01"/>
          <end value="2021-01-01"/>
        </valuePeriod>
      </extension>
      <extension url="https://www.ehealth.fgov.be/standards/fhir/referral/StructureDefinition/be-intended-performer">
        <extension url="role">
          <valueCodeableConcept>
            <coding>
              <system value="http://snomed.info/sct"/>
              <code value="106292003"/>
              <display value="Nurse"/>
            </coding>
          </valueCodeableConcept>
        </extension>
        <extension url="actor">
          <valueReference>
            <reference value="#Performer1"/>
          </valueReference>
        </extension>
      </extension>
      <status value="active"/>
      <intent value="order"/>
      <category>
        <coding>
          <system value="http://snomed.info/sct"/>
          <code value="9632001"/>
        </coding>
        <text value="Nursing procedure"/>
      </category>
      <priority value="routine"/>
      <code>
        <coding>
          <system value="https://www.ehealth.fgov.be/standards/fhir/referral/CodeSystem/be-cs-nursing-code"/>
          <code value="bladder-care"/>
        </coding>
      </code>
      <orderDetail>
        <coding>
          <system value="https://www.ehealth.fgov.be/standards/fhir/referral/CodeSystem/be-cs-type-of-bladder-care"/>
          <code value="bladder-probe-in-out"/>
        </coding>
      </orderDetail>
      <subject>
        <reference value="#patient1"/>
      </subject>
      <occurrenceTiming>
        <repeat>
          <frequency value="1"/>
          <period value="1"/>
          <periodUnit value="d"/>
        </repeat>
      </occurrenceTiming>
      <authoredOn value="2020-01-01"/>
      <requester>
        <reference value="#Requester1"/>
      </requester>
      <reasonCode>
        <text value="reason"/>
      </reasonCode>
    </ServiceRequest>
  </contained>
  <contained>
    <ServiceRequest>
      <id value="example01-care02-colon-cleansing"/>
      <meta>
        <profile value="https://www.ehealth.fgov.be/standards/fhir/referral/StructureDefinition/be-referralprescription-nursing"/>
        <profile value="https://www.ehealth.fgov.be/standards/fhir/referral/StructureDefinition/be-referralprescription-nursing-digestive-system-care"/>
      </meta>
      <extension url="http://hl7.org/fhir/StructureDefinition/request-statusReason">
        <valueCodeableConcept>
          <coding>
            <system value="https://www.ehealth.fgov.be/standards/fhir/referral/CodeSystem/be-status-reason"/>
            <code value="other"/>
            <display value="Other"/>
          </coding>
        </valueCodeableConcept>
      </extension>
      <extension url="https://www.ehealth.fgov.be/standards/fhir/referral/StructureDefinition/be-ext-validity-period">
        <valuePeriod>
          <start value="2020-01-01"/>
          <end value="2021-01-01"/>
        </valuePeriod>
      </extension>
      <extension url="https://www.ehealth.fgov.be/standards/fhir/referral/StructureDefinition/be-intended-performer">
        <extension url="role">
          <valueCodeableConcept>
            <coding>
              <system value="http://snomed.info/sct"/>
              <code value="106292003"/>
              <display value="Nurse"/>
            </coding>
          </valueCodeableConcept>
        </extension>
        <extension url="actor">
          <valueReference>
            <reference value="#Performer1"/>
          </valueReference>
        </extension>
      </extension>
      <status value="active"/>
      <intent value="order"/>
      <category>
        <coding>
          <system value="http://snomed.info/sct"/>
          <code value="9632001"/>
        </coding>
        <text value="Nursing procedure"/>
      </category>
      <priority value="routine"/>
      <code>
        <coding>
          <system value="https://www.ehealth.fgov.be/standards/fhir/referral/CodeSystem/be-cs-nursing-code"/>
          <code value="digestive-system-care"/>
        </coding>
      </code>
      <orderDetail>
        <coding>
          <system value="https://www.ehealth.fgov.be/standards/fhir/referral/CodeSystem/be-cs-digestive-system-care"/>
          <code value="colonic-cleansing"/>
        </coding>
      </orderDetail>
      <subject>
        <reference value="#patient1"/>
      </subject>
      <occurrenceTiming>
        <repeat>
          <frequency value="1"/>
          <period value="1"/>
          <periodUnit value="d"/>
        </repeat>
      </occurrenceTiming>
      <authoredOn value="2020-01-01"/>
      <requester>
        <reference value="#Requester1"/>
      </requester>
      <reasonCode>
        <text value="reason"/>
      </reasonCode>
    </ServiceRequest>
  </contained>
  <contained>
    <MedicationRequest>
      <id value="example01-care03-referralprescription-nursing-medication"/>
      <meta>
        <profile value="https://www.ehealth.fgov.be/standards/fhir/referral/StructureDefinition/be-referralprescription-nursing-gen-medication"/>
      </meta>
      <extension url="https://www.ehealth.fgov.be/standards/fhir/referral/StructureDefinition/be-intended-performer">
        <extension url="role">
          <valueCodeableConcept>
            <coding>
              <system value="http://snomed.info/sct"/>
              <code value="106292003"/>
              <display value="Nurse"/>
            </coding>
          </valueCodeableConcept>
        </extension>
        <extension url="actor">
          <valueReference>
            <reference value="#Performer1"/>
          </valueReference>
        </extension>
      </extension>
      <status value="active"/>
      <statusReason>
        <coding>
          <system value="https://www.ehealth.fgov.be/standards/fhir/referral/CodeSystem/be-status-reason"/>
          <code value="other"/>
          <display value="Other"/>
        </coding>
      </statusReason>
      <intent value="order"/>
      <category>
        <coding>
          <system value="https://www.ehealth.fgov.be/standards/fhir/referral/CodeSystem/be-nursing-medication-injection"/>
          <code value="SC"/>
        </coding>
        <text value="Subcutaan"/>
      </category>
      <priority value="routine"/>
      <medicationCodeableConcept>
        <coding>
          <system value="https://www.ehealth.fgov.be/standards/fhir/medication/NamingSystem/be-ns-cnk-codes"/>
          <code value="2661098"/>
          <display value="Midazolam Mylan inj./inf./instill. oploss. i.m./i.v./rect. [amp.] 10 x 5 mg / 5 ml"/>
        </coding>
      </medicationCodeableConcept>
      <subject>
        <reference value="#patient1"/>
      </subject>
      <requester>
        <reference value="#Requester1"/>
      </requester>
      <dosageInstruction>
        <text value="opzet hier: éénmalige sondage en lavement uitvoeren, maar persoon op voorhand verdoven met 5mg Midzaolan via subcutane inspuiting"/>
        <timing>
          <repeat>
            <frequency value="1"/>
            <period value="1"/>
            <periodUnit value="d"/>
          </repeat>
        </timing>
      </dosageInstruction>
    </MedicationRequest>
  </contained>
  <identifier>
    <system value="https://www.ehealth.fgov.be/standards/fhir/referral/NamingSystem/uhmep"/>
    <value value="UHMEPVALUE"/>
  </identifier>
  <status value="active"/>
  <intent value="order"/>
  <subject>
    <reference value="#patient1"/>
  </subject>
  <action id="care01">
    <relatedAction>
      <actionId value="care03"/>
      <relationship value="after-end"/>
    </relatedAction>
    <resource>
      <reference value="#example01-care01-referralprescription-nursing-bladder-care"/>
    </resource>
  </action>
  <action id="care02">
    <relatedAction>
      <actionId value="care03"/>
      <relationship value="after-end"/>
    </relatedAction>
    <resource>
      <reference value="#example01-care02-colon-cleansing"/>
    </resource>
  </action>
  <action id="care03">
    <resource>
      <reference value="#example01-care03-referralprescription-nursing-medication"/>
    </resource>
  </action>
</RequestGroup>